timestamp;accX;accY;accZ;gyroX;gyroY;gyroZ
812524;6.0;0.0;2036.0;3.0;1.0;0.0
812527;4.0;6.0;2043.0;-1.0;2.0;0.0
812531;-5.0;-2.0;2053.0;0.0;-2.0;-6.0
812534;10.0;4.0;2056.0;-1.0;1.0;-3.0
812538;-8.0;6.0;2052.0;-4.0;1.0;-1.0
812541;7.0;-6.0;2049.0;-3.0;-2.0;1.0
812545;12.0;-2.0;2054.0;-4.0;1.0;-8.0
812548;-2.0;6.0;2037.0;1.0;2.0;0.0
812552;-8.0;-7.0;2053.0;1.0;-1.0;-3.0
812555;8.0;-5.0;2051.0;-2.0;0.0;0.0
812559;-3.0;-4.0;2041.0;-6.0;1.0;-1.0
812562;-1.0;3.0;2036.0;0.0;1.0;-3.0
812566;9.0;1.0;2046.0;2.0;2.0;3.0
812569;7.0;1.0;2049.0;3.0;1.0;-1.0
812573;-4.0;6.0;2054.0;0.0;-1.0;-8.0
812576;3.0;1.0;2042.0;-3.0;-2.0;-6.0
812580;-10.0;3.0;2043.0;0.0;1.0;-1.0
812583;-1.0;0.0;2049.0;1.0;1.0;-3.0
812587;-4.0;-3.0;2044.0;-3.0;1.0;-1.0
812590;4.0;7.0;2058.0;-1.0;-1.0;-1.0
812594;1.0;0.0;2039.0;-3.0;3.0;-1.0
812597;-7.0;0.0;2048.0;3.0;1.0;-1.0
812601;0.0;-5.0;2047.0;-2.0;5.0;0.0
812604;9.0;2.0;2047.0;-2.0;2.0;-3.0
812608;-11.0;2.0;2050.0;-2.0;2.0;1.0
812611;-19.0;-3.0;2033.0;-2.0;0.0;2.0
812615;8.0;-4.0;2042.0;0.0;2.0;-3.0
812618;-3.0;-3.0;2049.0;-3.0;1.0;-4.0
812622;12.0;7.0;2040.0;-3.0;-1.0;1.0
812625;3.0;7.0;2052.0;-2.0;1.0;-2.0
812629;-1.0;8.0;2041.0;-3.0;-1.0;-2.0
812632;-6.0;3.0;2044.0;-1.0;1.0;-1.0
812636;3.0;2.0;2052.0;0.0;0.0;-4.0
812639;-10.0;-3.0;2050.0;-1.0;-3.0;-3.0
812643;-5.0;15.0;2048.0;-4.0;2.0;-5.0
812646;7.0;-5.0;2036.0;1.0;-3.0;5.0
812650;-1.0;-2.0;2042.0;-1.0;-2.0;-1.0
812653;6.0;-1.0;2044.0;-1.0;1.0;-3.0
812657;4.0;-4.0;2037.0;-2.0;-1.0;-4.0
812660;-8.0;-1.0;2037.0;2.0;4.0;-3.0
812664;9.0;-3.0;2049.0;2.0;2.0;-1.0
812667;-9.0;18.0;2040.0;1.0;1.0;-3.0
812671;-3.0;-11.0;2039.0;-1.0;2.0;1.0
812674;2.0;2.0;2051.0;-4.0;2.0;-3.0
812678;-1.0;3.0;2049.0;-3.0;-1.0;-1.0
812681;-4.0;4.0;2044.0;-3.0;3.0;-4.0
812685;-2.0;11.0;2044.0;-2.0;0.0;0.0
812688;6.0;9.0;2041.0;-4.0;0.0;-7.0
812692;-1.0;0.0;2044.0;-4.0;1.0;-1.0
812695;-1.0;-6.0;2039.0;-1.0;2.0;-1.0
812699;16.0;-5.0;2041.0;-1.0;3.0;0.0
812702;-5.0;3.0;2043.0;2.0;2.0;-2.0
812706;-3.0;2.0;2045.0;-2.0;-2.0;-1.0
812709;1.0;14.0;2043.0;-5.0;3.0;-4.0
812713;2.0;-2.0;2048.0;-3.0;2.0;0.0
812716;5.0;-6.0;2059.0;-1.0;3.0;0.0
812720;-9.0;-7.0;2048.0;-2.0;4.0;-3.0
812723;-4.0;6.0;2041.0;-2.0;0.0;6.0
812727;6.0;0.0;2045.0;0.0;1.0;-1.0
812730;10.0;14.0;2040.0;-1.0;2.0;-6.0
812734;0.0;12.0;2051.0;5.0;0.0;1.0
812737;12.0;-16.0;2038.0;-2.0;1.0;0.0
812741;2.0;-9.0;2053.0;-1.0;1.0;-2.0
812744;-1.0;13.0;2049.0;-4.0;2.0;0.0
812748;0.0;1.0;2056.0;-3.0;5.0;1.0
812751;1.0;2.0;2037.0;0.0;1.0;-2.0
812755;3.0;1.0;2044.0;1.0;3.0;-4.0
812758;-4.0;2.0;2041.0;0.0;-1.0;0.0
812762;0.0;0.0;2048.0;-4.0;-1.0;-3.0
812765;2.0;13.0;2042.0;1.0;-1.0;-4.0
812769;11.0;17.0;2051.0;-2.0;0.0;-4.0
812772;9.0;5.0;2055.0;2.0;2.0;2.0
812776;-13.0;7.0;2038.0;0.0;0.0;-1.0
812779;6.0;0.0;2046.0;0.0;3.0;2.0
812783;-7.0;13.0;2051.0;2.0;0.0;-4.0
812786;-2.0;2.0;2050.0;-3.0;-2.0;-3.0
812790;8.0;-7.0;2040.0;-3.0;2.0;-3.0
812793;-8.0;6.0;2047.0;-4.0;0.0;0.0
812797;9.0;4.0;2040.0;3.0;0.0;0.0
812800;0.0;-1.0;2038.0;-2.0;-1.0;1.0
812804;-6.0;9.0;2038.0;0.0;1.0;-3.0
812807;0.0;4.0;2048.0;-2.0;2.0;-4.0
812811;0.0;12.0;2044.0;1.0;2.0;-3.0
812814;8.0;-1.0;2033.0;-1.0;2.0;-2.0
812818;-11.0;0.0;2042.0;-1.0;-2.0;-2.0
812821;3.0;9.0;2040.0;0.0;5.0;-1.0
812825;4.0;4.0;2051.0;2.0;3.0;0.0
812828;6.0;12.0;2050.0;-2.0;-1.0;1.0
812832;-9.0;9.0;2053.0;0.0;-1.0;-1.0
812835;1.0;8.0;2045.0;-1.0;-2.0;-1.0
812839;4.0;8.0;2038.0;2.0;-1.0;-6.0
812842;6.0;10.0;2037.0;0.0;5.0;-1.0
812846;-7.0;2.0;2043.0;-1.0;0.0;4.0
812849;-10.0;-3.0;2050.0;1.0;4.0;-5.0
812853;-13.0;4.0;2043.0;2.0;-1.0;-1.0
812856;-3.0;7.0;2050.0;-1.0;3.0;4.0
812860;-2.0;3.0;2053.0;-1.0;-2.0;-1.0
812863;-4.0;-4.0;2047.0;0.0;2.0;-2.0
812867;3.0;4.0;2053.0;0.0;2.0;-5.0
812870;4.0;-3.0;2027.0;0.0;2.0;0.0
812874;-1.0;-1.0;2057.0;-3.0;0.0;-6.0
812877;-3.0;3.0;2048.0;-6.0;-1.0;-2.0
812881;4.0;2.0;2049.0;-2.0;3.0;-1.0
812884;-2.0;2.0;2045.0;1.0;3.0;0.0
812888;2.0;3.0;2048.0;-2.0;-1.0;0.0
812891;4.0;-2.0;2040.0;-2.0;2.0;2.0
812895;4.0;12.0;2052.0;-1.0;0.0;1.0
812898;0.0;-6.0;2038.0;-3.0;0.0;-2.0
812902;12.0;5.0;2039.0;-2.0;2.0;-3.0
812905;-3.0;-12.0;2052.0;0.0;3.0;-1.0
812909;4.0;-8.0;2044.0;-3.0;2.0;-2.0
812912;15.0;7.0;2044.0;3.0;0.0;1.0
812916;10.0;1.0;2030.0;-2.0;2.0;-1.0
812919;-1.0;-6.0;2056.0;-2.0;3.0;-1.0
812923;-11.0;4.0;2045.0;-2.0;0.0;0.0
812926;-8.0;-2.0;2046.0;-3.0;-3.0;0.0
812930;20.0;3.0;2041.0;-3.0;1.0;1.0
812933;-2.0;13.0;2044.0;-1.0;2.0;0.0
812937;-5.0;1.0;2047.0;0.0;-1.0;-1.0
812940;1.0;0.0;2049.0;2.0;2.0;-5.0
812944;1.0;13.0;2046.0;0.0;4.0;-2.0
812947;3.0;7.0;2061.0;-1.0;-1.0;5.0
812951;9.0;-2.0;2047.0;-1.0;2.0;-4.0
812954;5.0;3.0;2038.0;-2.0;5.0;-3.0
812958;-6.0;-2.0;2044.0;0.0;3.0;-2.0
812961;1.0;12.0;2053.0;-3.0;0.0;-3.0
812965;11.0;1.0;2040.0;0.0;3.0;-1.0
812968;-7.0;3.0;2047.0;-4.0;-3.0;-5.0
812972;-12.0;8.0;2040.0;-1.0;1.0;-2.0
812975;0.0;-3.0;2049.0;-1.0;0.0;-1.0
812979;-9.0;10.0;2044.0;0.0;2.0;1.0
812982;16.0;4.0;2037.0;0.0;1.0;-3.0
812986;-6.0;-7.0;2051.0;-1.0;0.0;-2.0
812989;9.0;-7.0;2048.0;-1.0;-1.0;-2.0
812993;15.0;2.0;2051.0;2.0;0.0;1.0
812996;-5.0;-2.0;2038.0;-2.0;4.0;0.0
813000;8.0;-1.0;2039.0;2.0;-1.0;1.0
813003;5.0;-7.0;2038.0;0.0;1.0;-1.0
813007;-2.0;1.0;2040.0;0.0;2.0;1.0
813010;4.0;10.0;2042.0;1.0;0.0;-2.0
813014;-4.0;7.0;2038.0;-2.0;1.0;-6.0
813017;-2.0;1.0;2045.0;1.0;2.0;-4.0
813021;3.0;7.0;2036.0;-3.0;3.0;-5.0
813024;3.0;-1.0;2036.0;2.0;1.0;-2.0
813028;5.0;5.0;2041.0;-2.0;1.0;2.0
813031;15.0;2.0;2054.0;-4.0;1.0;-5.0
813035;-3.0;4.0;2047.0;2.0;-1.0;-3.0
813038;4.0;12.0;2035.0;-2.0;0.0;-3.0
813042;-11.0;4.0;2052.0;0.0;2.0;-4.0
813045;-3.0;3.0;2047.0;0.0;1.0;-3.0
813049;8.0;0.0;2045.0;-2.0;5.0;-2.0
813052;4.0;-4.0;2046.0;1.0;0.0;-4.0
813056;-6.0;9.0;2048.0;0.0;1.0;-3.0
813059;-5.0;-1.0;2040.0;3.0;4.0;-1.0
813063;-1.0;5.0;2044.0;-1.0;4.0;-2.0
813066;-5.0;-3.0;2045.0;2.0;-1.0;-1.0
813070;-14.0;7.0;2053.0;1.0;-2.0;0.0
813073;-14.0;-3.0;2053.0;2.0;-3.0;-4.0
813077;1.0;0.0;2047.0;2.0;-3.0;2.0
813080;1.0;5.0;2040.0;-4.0;3.0;-3.0
813084;1.0;5.0;2047.0;0.0;1.0;1.0
813087;-6.0;-13.0;2045.0;-2.0;1.0;-2.0
813091;10.0;-1.0;2037.0;1.0;0.0;-3.0
813094;-1.0;-2.0;2041.0;-3.0;-2.0;0.0
813098;-14.0;0.0;2050.0;0.0;0.0;1.0
813101;-4.0;3.0;2047.0;0.0;3.0;-4.0
813105;-7.0;0.0;2057.0;-3.0;3.0;-5.0
813108;4.0;1.0;2043.0;1.0;1.0;-2.0
813112;6.0;9.0;2043.0;2.0;2.0;1.0
813115;6.0;5.0;2040.0;-3.0;0.0;2.0
813119;10.0;-8.0;2034.0;0.0;-3.0;-3.0
813122;-2.0;-11.0;2047.0;-3.0;-1.0;1.0
813126;-1.0;-1.0;2044.0;-1.0;0.0;0.0
813129;2.0;3.0;2044.0;-4.0;2.0;0.0
813133;8.0;-6.0;2053.0;-1.0;1.0;-4.0
813136;13.0;-3.0;2030.0;-4.0;1.0;-2.0
813140;-3.0;-2.0;2050.0;1.0;4.0;-3.0
813143;-4.0;-3.0;2040.0;-3.0;2.0;-1.0
813147;-6.0;-9.0;2045.0;-5.0;1.0;-2.0
813150;0.0;1.0;2049.0;0.0;-1.0;-3.0
813154;0.0;-5.0;2042.0;-3.0;-2.0;0.0
813157;5.0;3.0;2038.0;2.0;2.0;3.0
813161;0.0;3.0;2049.0;-1.0;4.0;0.0
813164;-6.0;-6.0;2037.0;-2.0;1.0;-6.0
813168;3.0;6.0;2046.0;0.0;1.0;-2.0
813171;-6.0;-5.0;2045.0;2.0;1.0;-3.0
813175;-2.0;3.0;2047.0;2.0;3.0;-4.0
813178;4.0;0.0;2043.0;-2.0;3.0;-6.0
813182;0.0;17.0;2040.0;4.0;4.0;-1.0
813185;6.0;3.0;2046.0;-2.0;-2.0;-2.0
813189;0.0;-1.0;2047.0;0.0;1.0;1.0
813192;-6.0;2.0;2045.0;0.0;3.0;-1.0
813196;-4.0;7.0;2045.0;-4.0;-2.0;0.0
813199;-8.0;-1.0;2045.0;-3.0;0.0;1.0
813203;-3.0;7.0;2041.0;3.0;1.0;-1.0
813206;5.0;0.0;2036.0;-2.0;-1.0;-3.0
813210;1.0;-3.0;2042.0;2.0;-2.0;-3.0
813213;5.0;0.0;2050.0;1.0;-2.0;0.0
813217;10.0;-5.0;2049.0;0.0;1.0;-3.0
813220;15.0;5.0;2050.0;1.0;0.0;0.0
813224;8.0;16.0;2048.0;-3.0;-2.0;-2.0
813227;-6.0;6.0;2044.0;0.0;2.0;-2.0
813231;-8.0;5.0;2052.0;-4.0;3.0;0.0
813234;-9.0;-1.0;2043.0;-1.0;3.0;-2.0
813238;4.0;-5.0;2047.0;-1.0;0.0;-5.0
813241;3.0;3.0;2047.0;4.0;0.0;-1.0
813245;-3.0;6.0;2045.0;-3.0;1.0;1.0
813248;-5.0;4.0;2045.0;0.0;-1.0;-1.0
813252;0.0;2.0;2041.0;-1.0;0.0;-2.0
813255;-7.0;0.0;2046.0;-1.0;0.0;-3.0
813259;9.0;2.0;2048.0;-3.0;2.0;-1.0
813262;-9.0;4.0;2041.0;-1.0;0.0;-3.0
813266;1.0;6.0;2040.0;-2.0;3.0;-1.0
813269;-8.0;12.0;2046.0;-3.0;2.0;0.0
813273;-9.0;-6.0;2035.0;-1.0;1.0;-1.0
813276;-6.0;0.0;2045.0;-3.0;-2.0;-4.0
813280;1.0;5.0;2053.0;-3.0;-1.0;-4.0
813283;7.0;-2.0;2047.0;-1.0;-3.0;-7.0
813287;-3.0;5.0;2052.0;0.0;0.0;-3.0
813290;2.0;-4.0;2050.0;-3.0;0.0;-2.0
813294;1.0;0.0;2042.0;-4.0;0.0;0.0
813297;12.0;0.0;2053.0;-2.0;0.0;1.0
813301;1.0;7.0;2039.0;0.0;0.0;-4.0
813304;1.0;11.0;2047.0;-1.0;0.0;1.0
813308;11.0;4.0;2050.0;-1.0;-1.0;2.0
813311;-4.0;9.0;2047.0;1.0;-1.0;2.0
813315;5.0;-4.0;2057.0;4.0;4.0;-4.0
813318;-5.0;13.0;2036.0;1.0;3.0;-2.0
813322;-2.0;8.0;2043.0;1.0;1.0;-1.0
813325;19.0;-2.0;2041.0;1.0;1.0;-1.0
813329;-9.0;6.0;2043.0;0.0;3.0;-2.0
813332;-7.0;12.0;2051.0;1.0;6.0;-1.0
813336;2.0;3.0;2050.0;-2.0;5.0;-2.0
813339;-6.0;0.0;2037.0;0.0;0.0;-5.0
813343;5.0;4.0;2052.0;0.0;-2.0;-3.0
813346;-8.0;5.0;2042.0;2.0;-1.0;-4.0
813350;-7.0;-8.0;2050.0;-1.0;-2.0;-3.0
813353;-3.0;8.0;2046.0;3.0;1.0;-1.0
813357;2.0;1.0;2053.0;-3.0;3.0;0.0
813360;-6.0;12.0;2046.0;0.0;-3.0;0.0
813364;0.0;-3.0;2050.0;-1.0;0.0;-2.0
813367;5.0;9.0;2038.0;-4.0;0.0;1.0
813371;0.0;5.0;2049.0;-2.0;1.0;-5.0
813374;-5.0;18.0;2032.0;0.0;3.0;-5.0
813378;4.0;6.0;2050.0;2.0;7.0;-3.0
813381;10.0;2.0;2037.0;-2.0;-1.0;1.0
813385;5.0;2.0;2050.0;1.0;-1.0;1.0
813388;-8.0;2.0;2062.0;2.0;-1.0;-5.0
813392;-4.0;8.0;2056.0;-1.0;-3.0;-4.0
813395;2.0;9.0;2059.0;5.0;1.0;-2.0
813399;1.0;11.0;2059.0;-1.0;5.0;2.0
813402;-8.0;-1.0;2057.0;-3.0;3.0;-6.0
813406;6.0;11.0;2053.0;-1.0;0.0;2.0
813409;-1.0;10.0;2050.0;-1.0;3.0;-5.0
813413;3.0;11.0;2043.0;0.0;3.0;-5.0
813416;0.0;0.0;2048.0;-1.0;-2.0;0.0
813420;0.0;0.0;2037.0;-1.0;-1.0;-2.0
813423;-3.0;-2.0;2049.0;1.0;0.0;-1.0
813427;-1.0;3.0;2032.0;3.0;1.0;-3.0
813430;-1.0;-5.0;2055.0;2.0;2.0;-4.0
813434;-6.0;4.0;2043.0;0.0;3.0;-3.0
813437;4.0;0.0;2049.0;0.0;2.0;-2.0
813441;4.0;-5.0;2043.0;3.0;1.0;-1.0
813444;-3.0;-1.0;2044.0;-4.0;0.0;-2.0
813448;5.0;13.0;2056.0;2.0;-1.0;-2.0
813451;1.0;-6.0;2046.0;2.0;2.0;-8.0
813455;6.0;11.0;2036.0;-2.0;-1.0;0.0
813458;2.0;9.0;2052.0;2.0;-2.0;5.0
813462;3.0;-1.0;2038.0;-3.0;2.0;-1.0
813465;-1.0;4.0;2044.0;-5.0;6.0;0.0
813469;2.0;1.0;2042.0;1.0;1.0;0.0
813472;22.0;4.0;2044.0;0.0;0.0;-1.0
813476;7.0;8.0;2043.0;0.0;2.0;-2.0
813479;3.0;-8.0;2049.0;1.0;4.0;-4.0
813483;-8.0;8.0;2044.0;-1.0;3.0;0.0
813486;3.0;8.0;2037.0;-5.0;-2.0;-5.0
813490;3.0;4.0;2050.0;0.0;1.0;-3.0
813493;0.0;9.0;2044.0;0.0;0.0;-1.0
813497;-3.0;-8.0;2041.0;-2.0;1.0;-4.0
813500;-5.0;10.0;2044.0;-5.0;0.0;1.0
813504;18.0;7.0;2043.0;-1.0;0.0;0.0
813507;3.0;7.0;2041.0;2.0;1.0;-2.0
813511;1.0;-1.0;2043.0;1.0;0.0;-5.0
813514;-10.0;1.0;2042.0;-1.0;2.0;0.0
813518;-2.0;2.0;2050.0;-1.0;2.0;0.0
813521;2.0;-2.0;2045.0;-3.0;0.0;-1.0
813525;-9.0;3.0;2045.0;2.0;0.0;-4.0
813528;0.0;1.0;2042.0;2.0;-2.0;-3.0
813532;-4.0;11.0;2046.0;2.0;-5.0;-4.0
813535;-5.0;8.0;2054.0;0.0;2.0;-1.0
813539;-3.0;6.0;2043.0;-5.0;0.0;-3.0
813542;1.0;10.0;2048.0;-1.0;0.0;1.0
813546;-9.0;7.0;2041.0;-5.0;-5.0;-3.0
813549;-6.0;1.0;2051.0;-2.0;0.0;-3.0
813553;8.0;-3.0;2053.0;-1.0;5.0;0.0
813556;7.0;1.0;2045.0;5.0;4.0;-1.0
813560;1.0;-5.0;2050.0;-2.0;-2.0;3.0
813563;7.0;5.0;2046.0;1.0;1.0;0.0
813567;-1.0;16.0;2042.0;-1.0;0.0;-3.0
813570;6.0;5.0;2050.0;-2.0;3.0;-3.0
813574;0.0;2.0;2056.0;3.0;-5.0;1.0
813577;11.0;10.0;2054.0;1.0;-3.0;-1.0
813581;1.0;-11.0;2048.0;-1.0;0.0;-1.0
813584;1.0;5.0;2041.0;-3.0;2.0;-3.0
813588;4.0;0.0;2047.0;-6.0;3.0;-2.0
813591;0.0;0.0;2052.0;-1.0;0.0;-3.0
813595;-4.0;4.0;2046.0;-1.0;2.0;-3.0
813598;-2.0;2.0;2046.0;0.0;2.0;1.0
813602;-2.0;4.0;2043.0;-5.0;-1.0;-3.0
813605;4.0;2.0;2042.0;-1.0;4.0;-1.0
813609;-1.0;4.0;2046.0;0.0;-1.0;-1.0
813612;-2.0;5.0;2038.0;3.0;2.0;-3.0
813616;14.0;11.0;2037.0;-2.0;-3.0;-1.0
813619;0.0;-3.0;2049.0;0.0;0.0;-3.0
813623;6.0;0.0;2039.0;0.0;1.0;-2.0
813626;2.0;19.0;2051.0;-2.0;-2.0;-3.0
813630;-5.0;2.0;2039.0;2.0;2.0;-3.0
813633;-2.0;3.0;2032.0;1.0;0.0;-6.0
813637;2.0;-3.0;2046.0;0.0;5.0;-1.0
813640;1.0;-10.0;2050.0;-4.0;-2.0;-1.0
813644;-6.0;5.0;2051.0;-2.0;4.0;-3.0
813647;-5.0;11.0;2037.0;2.0;3.0;1.0
813651;-5.0;0.0;2046.0;-2.0;-1.0;2.0
813654;9.0;4.0;2047.0;-2.0;2.0;1.0
813658;2.0;1.0;2043.0;-1.0;2.0;-5.0
813661;-11.0;5.0;2053.0;1.0;2.0;-8.0
813665;3.0;7.0;2038.0;1.0;-1.0;-2.0
813668;9.0;-2.0;2048.0;0.0;-1.0;-2.0
813672;-10.0;2.0;2040.0;-3.0;-1.0;-3.0
813675;2.0;3.0;2040.0;0.0;1.0;-3.0
813679;-3.0;-1.0;2038.0;-1.0;-3.0;-6.0
813682;-1.0;-2.0;2033.0;-2.0;3.0;-1.0
813686;-1.0;0.0;2045.0;1.0;2.0;-3.0
813689;7.0;9.0;2046.0;0.0;2.0;-1.0
813693;-1.0;3.0;2040.0;-2.0;-3.0;-2.0
813696;-6.0;5.0;2049.0;-2.0;4.0;-1.0
813700;3.0;3.0;2048.0;-3.0;3.0;-1.0
813703;-7.0;5.0;2045.0;-3.0;4.0;-2.0
813707;-11.0;6.0;2050.0;0.0;3.0;-2.0
813710;0.0;-6.0;2042.0;-1.0;3.0;-4.0
813714;-8.0;-3.0;2038.0;2.0;0.0;0.0
813717;3.0;7.0;2046.0;1.0;0.0;-3.0
813721;2.0;11.0;2060.0;4.0;4.0;5.0
813724;-1.0;9.0;2033.0;-3.0;1.0;1.0
813728;-2.0;12.0;2057.0;5.0;1.0;1.0
813731;12.0;3.0;2049.0;2.0;1.0;3.0
813735;-2.0;0.0;2049.0;-1.0;0.0;-4.0
813738;6.0;0.0;2049.0;-1.0;1.0;0.0
813742;18.0;5.0;2056.0;-1.0;1.0;-2.0
813745;-7.0;7.0;2052.0;0.0;1.0;-3.0
813749;3.0;13.0;2050.0;-2.0;0.0;-1.0
813752;-3.0;-1.0;2055.0;-1.0;0.0;-1.0
813756;3.0;7.0;2052.0;-4.0;1.0;-3.0
813759;3.0;-3.0;2047.0;0.0;-2.0;-3.0
813763;0.0;9.0;2048.0;-1.0;0.0;-1.0
813766;-3.0;2.0;2051.0;1.0;-3.0;-4.0
813770;3.0;-4.0;2048.0;1.0;-1.0;2.0
813773;5.0;-2.0;2051.0;-1.0;-1.0;-2.0
813777;-6.0;5.0;2062.0;-1.0;5.0;-2.0
813780;0.0;-9.0;2045.0;1.0;3.0;-4.0
813784;6.0;2.0;2044.0;0.0;2.0;0.0
813787;3.0;-1.0;2045.0;0.0;0.0;0.0
813791;1.0;-1.0;2054.0;0.0;3.0;-3.0
813794;-5.0;-2.0;2051.0;3.0;0.0;-3.0
813798;3.0;3.0;2044.0;-1.0;2.0;0.0
813801;-4.0;-2.0;2046.0;-1.0;3.0;0.0
813805;9.0;-2.0;2044.0;-2.0;-3.0;-3.0
813808;1.0;-2.0;2047.0;0.0;2.0;2.0
813812;6.0;-1.0;2038.0;1.0;1.0;-1.0
813815;-8.0;3.0;2033.0;-1.0;1.0;-4.0
813819;2.0;2.0;2050.0;-4.0;-1.0;-7.0
813822;4.0;-6.0;2052.0;-1.0;0.0;-1.0
813826;6.0;8.0;2048.0;0.0;3.0;1.0
813829;0.0;9.0;2048.0;1.0;-2.0;0.0
813833;-10.0;6.0;2046.0;-1.0;-1.0;-1.0
813836;-1.0;6.0;2039.0;2.0;-2.0;-5.0
813840;-2.0;-4.0;2046.0;0.0;-3.0;-2.0
813843;-2.0;10.0;2050.0;1.0;0.0;-1.0
813847;-1.0;-7.0;2034.0;-2.0;3.0;0.0
813850;-8.0;3.0;2048.0;0.0;2.0;0.0
813854;4.0;4.0;2043.0;-5.0;0.0;-3.0
813857;4.0;-7.0;2042.0;0.0;-1.0;-2.0
813861;-4.0;-1.0;2040.0;-6.0;-3.0;-2.0
813864;3.0;1.0;2042.0;-1.0;-2.0;1.0
813868;-3.0;8.0;2043.0;-2.0;2.0;-1.0
813871;7.0;-3.0;2051.0;-6.0;0.0;-4.0
813875;-1.0;10.0;2058.0;3.0;2.0;-2.0
813878;-8.0;3.0;2037.0;-1.0;0.0;-4.0
813882;-3.0;5.0;2037.0;1.0;-1.0;-2.0
813885;7.0;11.0;2047.0;-5.0;0.0;-1.0
813889;8.0;-2.0;2050.0;-1.0;-5.0;-5.0
813892;15.0;0.0;2051.0;-7.0;2.0;-4.0
813896;-2.0;8.0;2047.0;-6.0;-2.0;-3.0
813899;0.0;-6.0;2041.0;-2.0;-1.0;1.0
813903;-2.0;0.0;2052.0;3.0;2.0;-3.0
813906;9.0;-2.0;2053.0;1.0;3.0;-3.0
813910;-6.0;4.0;2047.0;1.0;0.0;-2.0
813913;-4.0;11.0;2048.0;-3.0;3.0;-4.0
813917;-2.0;-6.0;2040.0;-3.0;-1.0;-4.0
813920;5.0;3.0;2047.0;-2.0;2.0;-4.0
813924;0.0;5.0;2048.0;-2.0;-2.0;-6.0
813927;-4.0;2.0;2054.0;-3.0;-1.0;-2.0
813931;-8.0;0.0;2043.0;-4.0;0.0;-6.0
813934;8.0;0.0;2050.0;-1.0;2.0;-1.0
813938;-8.0;5.0;2039.0;0.0;2.0;-1.0
813941;4.0;2.0;2037.0;3.0;0.0;1.0
813945;-4.0;6.0;2047.0;1.0;-2.0;-3.0
813948;-8.0;8.0;2053.0;3.0;2.0;-5.0
813952;1.0;3.0;2048.0;-5.0;-1.0;2.0
813955;2.0;14.0;2046.0;-1.0;-4.0;0.0
813959;-1.0;12.0;2037.0;-1.0;4.0;0.0
813962;-3.0;11.0;2049.0;-1.0;2.0;-2.0
813966;2.0;0.0;2053.0;1.0;2.0;-4.0
813969;7.0;-2.0;2046.0;1.0;1.0;-1.0
813973;-8.0;-6.0;2034.0;-1.0;1.0;-4.0
813976;9.0;15.0;2042.0;0.0;2.0;-3.0
813980;-3.0;-3.0;2041.0;-4.0;0.0;-3.0
813983;2.0;-2.0;2031.0;0.0;0.0;-2.0
813987;2.0;5.0;2050.0;-2.0;-1.0;-1.0
813990;0.0;8.0;2049.0;-3.0;2.0;2.0
813994;1.0;4.0;2047.0;-4.0;2.0;-2.0
813997;13.0;-10.0;2048.0;-1.0;1.0;-1.0
814001;1.0;-2.0;2048.0;0.0;-3.0;-1.0
814004;19.0;12.0;2053.0;2.0;-2.0;-4.0
814008;-1.0;1.0;2048.0;-4.0;-1.0;-4.0
814011;-8.0;5.0;2043.0;0.0;1.0;0.0
814015;-9.0;-4.0;2046.0;-2.0;0.0;0.0
814018;-8.0;10.0;2055.0;-2.0;1.0;-3.0
814022;7.0;3.0;2035.0;0.0;0.0;-3.0
814025;1.0;4.0;2053.0;-1.0;2.0;-4.0
814029;9.0;3.0;2051.0;-4.0;2.0;-2.0
814032;-11.0;10.0;2040.0;-1.0;0.0;1.0
814036;2.0;-7.0;2041.0;4.0;3.0;-1.0
814039;4.0;-6.0;2048.0;-1.0;-1.0;-4.0
814043;2.0;2.0;2053.0;-2.0;0.0;-3.0
814046;8.0;17.0;2052.0;-1.0;4.0;-3.0
814050;6.0;2.0;2055.0;0.0;0.0;-1.0
814053;-3.0;-7.0;2051.0;1.0;-2.0;-4.0
814057;-14.0;1.0;2045.0;1.0;1.0;-4.0
814060;5.0;14.0;2033.0;0.0;1.0;0.0
814064;7.0;2.0;2043.0;-1.0;2.0;0.0
814067;13.0;11.0;2048.0;0.0;1.0;1.0
814071;2.0;4.0;2047.0;-2.0;3.0;1.0
814074;-3.0;17.0;2043.0;0.0;0.0;-4.0
814078;22.0;1.0;2040.0;-3.0;-3.0;-3.0
814081;9.0;16.0;2050.0;2.0;-3.0;0.0
814085;9.0;0.0;2038.0;1.0;0.0;-3.0
814088;2.0;-2.0;2042.0;-4.0;0.0;-1.0
814092;0.0;9.0;2034.0;-2.0;1.0;-3.0
814095;-3.0;-5.0;2046.0;1.0;-3.0;-2.0
814099;2.0;10.0;2038.0;-4.0;2.0;0.0
814102;1.0;4.0;2046.0;-1.0;5.0;1.0
814106;-11.0;7.0;2031.0;-2.0;1.0;1.0
814109;2.0;8.0;2041.0;-4.0;-3.0;3.0
814113;4.0;4.0;2051.0;-1.0;-1.0;-2.0
814116;3.0;0.0;2030.0;0.0;-2.0;-1.0
814120;13.0;6.0;2044.0;0.0;-2.0;-1.0
814123;0.0;3.0;2054.0;0.0;1.0;-2.0
814127;3.0;-7.0;2042.0;-5.0;3.0;2.0
814130;3.0;10.0;2044.0;-4.0;1.0;-4.0
814134;-6.0;-5.0;2054.0;0.0;0.0;0.0
814137;1.0;9.0;2055.0;-1.0;-1.0;1.0
814141;-1.0;0.0;2045.0;-2.0;0.0;-4.0
814144;-1.0;-1.0;2046.0;0.0;-1.0;-2.0
814148;-4.0;-1.0;2043.0;-5.0;-2.0;-1.0
814151;6.0;9.0;2046.0;0.0;2.0;1.0
814155;5.0;3.0;2043.0;-3.0;4.0;0.0
814158;0.0;-3.0;2041.0;-3.0;3.0;1.0
814162;6.0;5.0;2049.0;1.0;2.0;0.0
814165;0.0;3.0;2045.0;1.0;2.0;1.0
814169;-7.0;8.0;2048.0;0.0;2.0;1.0
814172;10.0;-2.0;2055.0;2.0;-1.0;-2.0
814176;0.0;15.0;2038.0;1.0;1.0;-2.0
814179;-2.0;10.0;2046.0;4.0;2.0;1.0
814183;-1.0;9.0;2047.0;2.0;1.0;1.0
814186;-8.0;0.0;2042.0;-4.0;3.0;-2.0
814190;0.0;-9.0;2051.0;3.0;3.0;1.0
814193;9.0;4.0;2042.0;-1.0;1.0;-3.0
814197;6.0;3.0;2052.0;-3.0;0.0;-3.0
814200;-3.0;1.0;2044.0;-3.0;-1.0;-2.0
814204;12.0;10.0;2052.0;2.0;3.0;-1.0
814207;9.0;2.0;2051.0;3.0;1.0;-2.0
814211;-9.0;17.0;2045.0;1.0;2.0;-5.0
814214;-5.0;-2.0;2047.0;1.0;1.0;-2.0
814218;0.0;7.0;2035.0;-2.0;1.0;-1.0
814221;9.0;2.0;2045.0;-2.0;1.0;-1.0
814225;-3.0;2.0;2035.0;1.0;0.0;0.0
814228;-6.0;4.0;2051.0;-2.0;3.0;-2.0
814232;-8.0;11.0;2042.0;3.0;1.0;-6.0
814235;-10.0;7.0;2050.0;3.0;-1.0;-5.0
814239;0.0;18.0;2048.0;-5.0;5.0;-4.0
814242;-6.0;8.0;2045.0;-6.0;1.0;-3.0
814246;4.0;10.0;2038.0;1.0;2.0;-1.0
814249;4.0;10.0;2045.0;2.0;6.0;-3.0
814253;9.0;-3.0;2048.0;1.0;5.0;-1.0
814256;10.0;1.0;2038.0;0.0;2.0;-5.0
814260;-1.0;17.0;2054.0;0.0;-1.0;-1.0
814263;9.0;-4.0;2031.0;-2.0;3.0;-3.0
814267;-11.0;11.0;2046.0;-3.0;-3.0;-3.0
814270;-6.0;-6.0;2045.0;0.0;4.0;-3.0
814274;8.0;6.0;2050.0;0.0;1.0;0.0
814277;8.0;0.0;2042.0;0.0;1.0;-2.0
814281;10.0;14.0;2047.0;1.0;0.0;0.0
814284;-3.0;7.0;2043.0;-3.0;0.0;-1.0
814288;2.0;4.0;2051.0;-6.0;3.0;-1.0
814291;6.0;7.0;2029.0;-3.0;0.0;0.0
814295;6.0;1.0;2048.0;-1.0;0.0;-5.0
814298;13.0;-5.0;2039.0;1.0;3.0;1.0
814302;-5.0;3.0;2047.0;0.0;2.0;-5.0
814305;5.0;3.0;2042.0;1.0;2.0;1.0
814309;-7.0;3.0;2037.0;3.0;5.0;-2.0
814312;-9.0;-2.0;2047.0;-1.0;1.0;-3.0
814316;-1.0;1.0;2045.0;-1.0;-2.0;-1.0
814319;-1.0;5.0;2051.0;-4.0;-2.0;0.0
814323;-1.0;-5.0;2049.0;0.0;2.0;-2.0
814326;5.0;4.0;2053.0;4.0;2.0;0.0
814330;5.0;5.0;2051.0;2.0;1.0;-1.0
814333;6.0;9.0;2049.0;-3.0;0.0;-3.0
814337;1.0;6.0;2046.0;-2.0;2.0;-1.0
814340;-3.0;9.0;2043.0;-2.0;-4.0;0.0
814344;8.0;-3.0;2045.0;-3.0;3.0;-1.0
814347;6.0;9.0;2042.0;-2.0;1.0;-2.0
814351;-7.0;5.0;2047.0;0.0;-1.0;0.0
814354;-4.0;8.0;2038.0;-3.0;0.0;-2.0
814358;-1.0;6.0;2045.0;-3.0;0.0;-3.0
814361;5.0;11.0;2040.0;-2.0;1.0;2.0
814365;3.0;6.0;2032.0;0.0;4.0;0.0
814368;-6.0;6.0;2045.0;-3.0;0.0;-3.0
814372;3.0;3.0;2060.0;0.0;0.0;-4.0
814375;-2.0;11.0;2052.0;-2.0;4.0;-1.0
814379;-6.0;10.0;2053.0;2.0;0.0;1.0
814382;7.0;14.0;2042.0;0.0;1.0;3.0
814386;10.0;6.0;2057.0;0.0;2.0;-4.0
814389;-7.0;-1.0;2051.0;-2.0;2.0;2.0
814393;-5.0;5.0;2047.0;-1.0;2.0;0.0
814396;0.0;3.0;2041.0;0.0;3.0;-4.0
814400;8.0;12.0;2048.0;-1.0;1.0;2.0
814403;0.0;0.0;2043.0;-3.0;2.0;0.0
814407;-2.0;3.0;2048.0;0.0;2.0;-4.0
814410;1.0;4.0;2048.0;-2.0;0.0;-5.0
814414;5.0;17.0;2039.0;-2.0;2.0;0.0
814417;-2.0;-5.0;2050.0;-2.0;2.0;-5.0
814421;8.0;19.0;2043.0;-3.0;1.0;0.0
814424;-6.0;-2.0;2050.0;-2.0;0.0;0.0
814428;4.0;5.0;2039.0;-4.0;0.0;-3.0
814431;4.0;2.0;2053.0;2.0;2.0;-4.0
814435;6.0;10.0;2043.0;-2.0;0.0;-2.0
814438;5.0;5.0;2046.0;1.0;-3.0;-2.0
814442;-2.0;9.0;2041.0;1.0;2.0;-5.0
814445;-7.0;1.0;2045.0;-1.0;2.0;-4.0
814449;2.0;13.0;2052.0;4.0;1.0;-4.0
814452;-6.0;16.0;2043.0;-2.0;0.0;-3.0
814456;-3.0;10.0;2042.0;-1.0;2.0;-3.0
814459;6.0;0.0;2048.0;-2.0;-2.0;2.0
814463;-3.0;4.0;2055.0;-3.0;0.0;-3.0
814466;-10.0;5.0;2037.0;0.0;4.0;-5.0
814470;2.0;3.0;2041.0;-1.0;0.0;-2.0
814473;-6.0;4.0;2053.0;-3.0;0.0;-3.0
814477;-12.0;10.0;2054.0;-2.0;1.0;1.0
814480;-4.0;9.0;2044.0;-3.0;-4.0;-6.0
814484;2.0;7.0;2044.0;-3.0;2.0;-3.0
814487;-3.0;14.0;2050.0;-2.0;4.0;-2.0
814491;5.0;12.0;2047.0;4.0;0.0;3.0
814494;11.0;-1.0;2041.0;1.0;-4.0;-1.0
814498;-4.0;-2.0;2051.0;-3.0;0.0;2.0
814501;-3.0;-1.0;2050.0;-4.0;2.0;1.0
814505;-3.0;3.0;2047.0;-1.0;0.0;-4.0
814508;11.0;1.0;2051.0;2.0;3.0;-3.0
814512;8.0;2.0;2046.0;-4.0;4.0;0.0
814515;2.0;-11.0;2039.0;-1.0;4.0;0.0
814519;4.0;-4.0;2044.0;0.0;-2.0;0.0
814522;7.0;12.0;2030.0;-1.0;-3.0;-6.0
814526;0.0;-5.0;2044.0;3.0;3.0;-2.0
814529;4.0;-1.0;2040.0;-2.0;0.0;0.0
814533;10.0;0.0;2040.0;-2.0;-2.0;-3.0
814536;-1.0;5.0;2033.0;-1.0;0.0;-2.0
814540;-2.0;7.0;2039.0;-5.0;2.0;0.0
814543;0.0;11.0;2035.0;-5.0;4.0;-3.0
814547;-9.0;5.0;2041.0;0.0;-3.0;-1.0
814550;8.0;6.0;2038.0;-7.0;2.0;5.0
814554;-6.0;-4.0;2040.0;0.0;0.0;-5.0
814557;3.0;8.0;2034.0;1.0;6.0;-3.0
814561;1.0;5.0;2047.0;-2.0;-2.0;-4.0
814564;-9.0;7.0;2044.0;-4.0;1.0;-1.0
814568;3.0;-2.0;2044.0;-4.0;1.0;1.0
814571;1.0;4.0;2038.0;1.0;-2.0;-4.0
814575;5.0;9.0;2052.0;-2.0;0.0;0.0
814578;11.0;10.0;2068.0;-1.0;-1.0;-4.0
814582;1.0;5.0;2048.0;-3.0;2.0;-2.0
814585;4.0;3.0;2035.0;-4.0;-1.0;0.0
814589;-3.0;12.0;2050.0;-2.0;3.0;0.0
814592;10.0;7.0;2045.0;1.0;0.0;0.0
814596;3.0;6.0;2050.0;-3.0;3.0;1.0
814599;0.0;15.0;2048.0;0.0;2.0;-3.0
814603;6.0;10.0;2041.0;2.0;-1.0;0.0
814606;7.0;-2.0;2036.0;-2.0;3.0;-2.0
814610;-3.0;-5.0;2042.0;2.0;0.0;1.0
814613;-11.0;7.0;2039.0;1.0;-1.0;-3.0
814617;2.0;4.0;2046.0;-4.0;1.0;-5.0
814620;-5.0;1.0;2052.0;-2.0;1.0;-1.0
814624;-3.0;17.0;2053.0;-4.0;2.0;-2.0
814627;4.0;8.0;2038.0;-2.0;0.0;-4.0
814631;4.0;3.0;2045.0;-1.0;2.0;-1.0
814634;-12.0;2.0;2047.0;0.0;2.0;-1.0
814638;-11.0;2.0;2046.0;0.0;1.0;-1.0
814641;-6.0;5.0;2053.0;0.0;3.0;-3.0
814645;-3.0;10.0;2040.0;-3.0;0.0;1.0
814648;-8.0;5.0;2046.0;-3.0;2.0;-2.0
814652;-4.0;7.0;2052.0;-1.0;4.0;0.0
814655;-5.0;2.0;2049.0;-2.0;-3.0;0.0
814659;1.0;-3.0;2050.0;-2.0;-1.0;-4.0
814662;11.0;1.0;2039.0;-2.0;0.0;-5.0
814666;3.0;10.0;2045.0;-2.0;0.0;1.0
814669;-1.0;-4.0;2050.0;-1.0;-3.0;-1.0
814673;7.0;-4.0;2045.0;0.0;2.0;-2.0
814676;1.0;-1.0;2046.0;-1.0;-3.0;-3.0
814680;2.0;18.0;2039.0;0.0;-1.0;0.0
814683;9.0;11.0;2042.0;1.0;3.0;-6.0
814687;1.0;11.0;2041.0;-2.0;0.0;0.0
814690;7.0;-3.0;2037.0;-2.0;2.0;-3.0
814694;-5.0;4.0;2049.0;0.0;5.0;-4.0
814697;4.0;3.0;2056.0;-1.0;0.0;3.0
814701;3.0;4.0;2052.0;-3.0;5.0;-4.0
814704;-4.0;17.0;2050.0;1.0;1.0;-1.0
814708;-1.0;-5.0;2053.0;0.0;-1.0;0.0
814711;1.0;1.0;2037.0;4.0;5.0;0.0
814715;-7.0;11.0;2057.0;-1.0;2.0;1.0
814718;11.0;8.0;2053.0;1.0;-4.0;-5.0
814722;-5.0;11.0;2053.0;-3.0;2.0;-2.0
814725;7.0;10.0;2041.0;-3.0;1.0;-1.0
814729;-14.0;1.0;2050.0;2.0;-3.0;-4.0
814732;-2.0;5.0;2051.0;1.0;2.0;-1.0
814736;2.0;11.0;2037.0;-1.0;-2.0;-4.0
814739;2.0;-4.0;2045.0;0.0;-2.0;-2.0
814743;3.0;9.0;2049.0;0.0;3.0;2.0
814746;-4.0;3.0;2047.0;0.0;1.0;-7.0
814750;6.0;-5.0;2045.0;-3.0;2.0;-3.0
814753;2.0;10.0;2041.0;0.0;1.0;0.0
814757;1.0;-2.0;2062.0;3.0;4.0;-3.0
814760;2.0;-5.0;2053.0;-1.0;-1.0;0.0
814764;-4.0;12.0;2048.0;-2.0;0.0;-3.0
814767;9.0;7.0;2048.0;-4.0;2.0;-2.0
814771;6.0;0.0;2048.0;1.0;6.0;2.0
814774;-7.0;-6.0;2049.0;-2.0;-1.0;-3.0
814778;-5.0;14.0;2051.0;-2.0;-5.0;-1.0
814781;3.0;-4.0;2045.0;3.0;-2.0;0.0
814785;1.0;5.0;2044.0;-3.0;2.0;-5.0
814788;-5.0;4.0;2045.0;0.0;1.0;-4.0
814792;10.0;0.0;2048.0;-1.0;1.0;2.0
814795;11.0;10.0;2038.0;-3.0;-3.0;-2.0
814799;-13.0;-12.0;2036.0;-1.0;3.0;-1.0
814802;4.0;0.0;2039.0;-1.0;-3.0;-7.0
814806;-3.0;6.0;2051.0;0.0;0.0;1.0
814809;-5.0;12.0;2045.0;-2.0;2.0;-1.0
814813;4.0;4.0;2048.0;0.0;-3.0;2.0
814816;19.0;-5.0;2042.0;0.0;0.0;-7.0
814820;21.0;15.0;2038.0;1.0;2.0;2.0
814823;5.0;9.0;2037.0;-2.0;2.0;-3.0
814827;0.0;6.0;2045.0;-3.0;3.0;2.0
814830;-1.0;6.0;2041.0;-2.0;0.0;-4.0
814834;3.0;10.0;2048.0;-1.0;0.0;-1.0
814837;0.0;9.0;2027.0;2.0;0.0;-2.0
814841;3.0;2.0;2042.0;2.0;0.0;-2.0
814844;-1.0;11.0;2043.0;0.0;-3.0;-2.0
814848;-7.0;5.0;2044.0;-3.0;1.0;-1.0
814851;11.0;4.0;2042.0;-3.0;4.0;-3.0
814855;14.0;1.0;2049.0;-4.0;0.0;-4.0
814858;3.0;3.0;2043.0;1.0;-1.0;-3.0
814862;0.0;-3.0;2044.0;-5.0;-2.0;-3.0
814865;-1.0;-9.0;2038.0;-1.0;-4.0;0.0
814869;5.0;-7.0;2048.0;0.0;-2.0;-3.0
814872;-3.0;9.0;2048.0;-2.0;1.0;-1.0
814876;11.0;1.0;2039.0;-2.0;0.0;-1.0
814879;-12.0;5.0;2045.0;-2.0;1.0;0.0
814883;-1.0;6.0;2045.0;0.0;3.0;2.0
814886;4.0;9.0;2046.0;-1.0;3.0;-4.0
814890;-3.0;12.0;2041.0;-5.0;1.0;1.0
814893;-2.0;-2.0;2042.0;3.0;2.0;0.0
814897;-1.0;4.0;2049.0;1.0;1.0;-4.0
814900;1.0;15.0;2049.0;-3.0;2.0;-2.0
814904;1.0;-2.0;2048.0;0.0;2.0;-4.0
814907;-5.0;-1.0;2044.0;-4.0;-3.0;-2.0
814911;-2.0;-4.0;2048.0;1.0;6.0;-3.0
814914;-14.0;2.0;2044.0;1.0;-1.0;-5.0
814918;4.0;-9.0;2042.0;-1.0;1.0;-1.0
814921;2.0;3.0;2048.0;-1.0;-2.0;-3.0
814925;-1.0;13.0;2049.0;-1.0;-2.0;0.0
814928;3.0;8.0;2041.0;-1.0;-1.0;-2.0
814932;0.0;3.0;2042.0;0.0;2.0;0.0
814935;-1.0;2.0;2046.0;0.0;2.0;-1.0
814939;5.0;3.0;2044.0;0.0;-1.0;-4.0
814942;-5.0;2.0;2045.0;0.0;1.0;-3.0
814946;0.0;4.0;2039.0;-5.0;3.0;-3.0
814949;-7.0;-13.0;2038.0;-4.0;-2.0;0.0
814953;2.0;-3.0;2039.0;-1.0;4.0;1.0
814956;0.0;2.0;2044.0;2.0;0.0;2.0
814960;-3.0;10.0;2044.0;-1.0;4.0;-4.0
814963;-2.0;1.0;2056.0;-3.0;0.0;-2.0
814967;9.0;2.0;2048.0;1.0;-1.0;1.0
814970;0.0;-2.0;2043.0;4.0;-2.0;-5.0
814974;13.0;7.0;2044.0;3.0;1.0;-3.0
814977;-3.0;5.0;2046.0;-2.0;1.0;-1.0
814981;-11.0;2.0;2057.0;-2.0;3.0;-2.0
814984;-7.0;7.0;2044.0;-2.0;-3.0;-2.0
814988;0.0;13.0;2044.0;3.0;0.0;-1.0
814991;-3.0;-8.0;2049.0;-1.0;2.0;-2.0
814995;-4.0;-5.0;2051.0;-1.0;-1.0;-5.0
814998;-1.0;1.0;2052.0;1.0;2.0;-4.0
815002;0.0;4.0;2047.0;0.0;-1.0;-2.0
815005;6.0;-3.0;2046.0;-2.0;1.0;-1.0
815009;-2.0;2.0;2044.0;2.0;2.0;-2.0
815012;-8.0;3.0;2038.0;-3.0;-1.0;1.0
815016;-4.0;6.0;2045.0;1.0;0.0;-7.0
815019;-2.0;-4.0;2049.0;-1.0;0.0;-2.0
815023;-11.0;2.0;2038.0;-1.0;1.0;-2.0
815026;-6.0;8.0;2046.0;-5.0;2.0;-2.0
815030;-4.0;21.0;2040.0;-1.0;5.0;-4.0
815033;3.0;4.0;2053.0;0.0;-1.0;2.0
815037;-1.0;-3.0;2050.0;-1.0;-1.0;3.0
815040;6.0;5.0;2046.0;2.0;4.0;-4.0
815044;-1.0;0.0;2050.0;3.0;3.0;0.0
815047;2.0;6.0;2059.0;1.0;0.0;1.0
815051;-1.0;1.0;2054.0;-1.0;3.0;-1.0
815054;5.0;9.0;2047.0;-2.0;4.0;-2.0
815058;-1.0;-1.0;2033.0;-1.0;-1.0;-3.0
815061;-1.0;5.0;2046.0;2.0;1.0;-3.0
815065;0.0;3.0;2037.0;-4.0;2.0;0.0
815068;-3.0;3.0;2042.0;1.0;2.0;-4.0
815072;-3.0;12.0;2048.0;0.0;1.0;-4.0
815075;1.0;-2.0;2041.0;2.0;-2.0;-4.0
815079;8.0;2.0;2056.0;0.0;1.0;-1.0
815082;-7.0;8.0;2053.0;-1.0;4.0;-1.0
815086;0.0;7.0;2055.0;-5.0;4.0;-3.0
815089;11.0;6.0;2041.0;1.0;0.0;-2.0
815093;-3.0;2.0;2044.0;3.0;-2.0;-3.0
815096;-2.0;1.0;2039.0;0.0;3.0;-1.0
815100;2.0;-8.0;2058.0;-1.0;2.0;-1.0
815103;3.0;7.0;2048.0;-1.0;1.0;0.0
815107;-5.0;-2.0;2046.0;0.0;0.0;-1.0
815110;-3.0;-3.0;2043.0;-4.0;0.0;-1.0
815114;-5.0;2.0;2049.0;-1.0;-3.0;-3.0
815117;0.0;-2.0;2046.0;-3.0;3.0;0.0
815121;4.0;1.0;2049.0;-3.0;2.0;-1.0
815124;10.0;4.0;2056.0;-1.0;3.0;3.0
815128;4.0;5.0;2043.0;0.0;0.0;-4.0
815131;8.0;-5.0;2047.0;-1.0;4.0;-4.0
815135;8.0;6.0;2048.0;-4.0;-3.0;-5.0
815138;-3.0;7.0;2039.0;-1.0;-2.0;-4.0
815142;-4.0;-2.0;2048.0;1.0;-2.0;-3.0
815145;0.0;-1.0;2038.0;1.0;-3.0;-2.0
815149;15.0;5.0;2041.0;-1.0;1.0;1.0
815152;0.0;9.0;2041.0;-3.0;2.0;-2.0
815156;2.0;12.0;2041.0;-5.0;0.0;-3.0
815159;3.0;0.0;2055.0;-4.0;4.0;-1.0
815163;-1.0;-7.0;2043.0;3.0;1.0;-1.0
815166;-2.0;-1.0;2050.0;0.0;2.0;-1.0
815170;8.0;-2.0;2049.0;-2.0;1.0;0.0
815173;-4.0;2.0;2038.0;-3.0;1.0;-4.0
815177;-1.0;2.0;2033.0;-5.0;2.0;1.0
815180;-6.0;-9.0;2045.0;0.0;1.0;-4.0
815184;9.0;7.0;2035.0;1.0;-1.0;-1.0
815187;-5.0;-4.0;2039.0;1.0;-1.0;-3.0
815191;-1.0;1.0;2047.0;-2.0;-2.0;-1.0
815194;-6.0;-3.0;2045.0;-3.0;3.0;-2.0
815198;-11.0;5.0;2042.0;0.0;1.0;-2.0
815201;-9.0;3.0;2049.0;2.0;2.0;-3.0
815205;-2.0;0.0;2044.0;-1.0;-2.0;-3.0
815208;-5.0;-8.0;2042.0;2.0;-1.0;1.0
815212;-4.0;12.0;2048.0;0.0;3.0;0.0
815215;1.0;3.0;2058.0;-1.0;0.0;-5.0
815219;-3.0;8.0;2046.0;0.0;1.0;-7.0
815222;5.0;-1.0;2043.0;-1.0;1.0;1.0
815226;6.0;14.0;2034.0;0.0;-2.0;-1.0
815229;7.0;-2.0;2054.0;-2.0;1.0;-3.0
815233;6.0;8.0;2050.0;-3.0;1.0;-4.0
815236;4.0;-1.0;2051.0;0.0;1.0;-1.0
815240;-5.0;1.0;2040.0;2.0;3.0;-5.0
815243;-2.0;3.0;2040.0;0.0;1.0;-1.0
815247;1.0;0.0;2047.0;-1.0;-3.0;-4.0
815250;-6.0;0.0;2057.0;-3.0;0.0;-6.0
815254;2.0;10.0;2034.0;2.0;0.0;-4.0
815257;6.0;1.0;2047.0;-4.0;3.0;1.0
815261;4.0;1.0;2041.0;3.0;-1.0;-2.0
815264;12.0;11.0;2052.0;-7.0;7.0;1.0
815268;-1.0;-1.0;2042.0;1.0;4.0;-2.0
815271;5.0;2.0;2054.0;-6.0;2.0;-3.0
815275;-2.0;4.0;2054.0;0.0;-2.0;-1.0
815278;-4.0;4.0;2052.0;-5.0;3.0;0.0
815282;8.0;-3.0;2035.0;1.0;-4.0;-4.0
815285;-5.0;2.0;2047.0;-2.0;0.0;-1.0
815289;1.0;7.0;2049.0;-3.0;9.0;0.0
815292;-4.0;6.0;2039.0;-3.0;-1.0;-3.0
815296;3.0;6.0;2051.0;2.0;0.0;-3.0
815299;-10.0;1.0;2044.0;-2.0;2.0;1.0
815303;14.0;-4.0;2052.0;-2.0;-1.0;-1.0
815306;-2.0;0.0;2040.0;-2.0;1.0;-3.0
815310;-3.0;3.0;2049.0;1.0;0.0;2.0
815313;6.0;2.0;2044.0;0.0;-3.0;-3.0
815317;4.0;13.0;2043.0;-1.0;3.0;-2.0
815320;8.0;9.0;2045.0;3.0;4.0;1.0
815324;0.0;4.0;2044.0;2.0;5.0;-2.0
815327;1.0;6.0;2046.0;-1.0;0.0;-6.0
815331;8.0;8.0;2052.0;0.0;0.0;-5.0
815334;-3.0;-5.0;2042.0;1.0;2.0;0.0
815338;-3.0;10.0;2042.0;2.0;3.0;-4.0
815341;-3.0;8.0;2045.0;1.0;3.0;-2.0
815345;-1.0;10.0;2052.0;4.0;-1.0;-3.0
815348;-7.0;0.0;2034.0;-2.0;-1.0;-1.0
815352;8.0;3.0;2050.0;1.0;0.0;-4.0
815355;-2.0;-6.0;2033.0;-2.0;5.0;-2.0
815359;4.0;5.0;2038.0;-1.0;-3.0;-3.0
815362;-2.0;-5.0;2050.0;-1.0;0.0;-4.0
815366;-7.0;-2.0;2035.0;-3.0;0.0;1.0
815369;-1.0;13.0;2043.0;1.0;4.0;0.0
815373;2.0;11.0;2057.0;-2.0;4.0;0.0
815376;-13.0;16.0;2053.0;2.0;-1.0;-1.0
815380;6.0;5.0;2036.0;0.0;-3.0;-4.0
815383;8.0;10.0;2038.0;-2.0;-3.0;-1.0
815387;5.0;-6.0;2052.0;1.0;0.0;0.0
815390;-10.0;-3.0;2041.0;1.0;1.0;-1.0
815394;2.0;1.0;2044.0;-2.0;1.0;1.0
815397;4.0;4.0;2042.0;-2.0;0.0;-1.0
815401;-3.0;-2.0;2052.0;2.0;4.0;-2.0
815404;4.0;6.0;2058.0;0.0;5.0;0.0
815408;1.0;0.0;2043.0;2.0;1.0;1.0
815677;4.0;6.0;2044.0;-2.0;3.0;0.0
815681;12.0;-1.0;2026.0;-2.0;-1.0;-5.0
815684;4.0;-6.0;2039.0;-1.0;6.0;-2.0
815688;3.0;17.0;2058.0;-3.0;-6.0;3.0
815691;-2.0;-4.0;2056.0;-2.0;-3.0;-2.0
815695;-3.0;0.0;2038.0;4.0;3.0;-5.0
815698;4.0;5.0;2045.0;-2.0;2.0;-1.0
815702;8.0;-1.0;2051.0;-1.0;2.0;-1.0
815705;-2.0;5.0;2057.0;-2.0;0.0;1.0
815709;16.0;2.0;2052.0;-4.0;1.0;0.0
815712;11.0;3.0;2036.0;-4.0;-2.0;1.0
815716;-7.0;-2.0;2049.0;-3.0;0.0;3.0
815719;-7.0;5.0;2057.0;-1.0;1.0;0.0
815723;4.0;4.0;2032.0;-2.0;0.0;0.0
815726;4.0;15.0;2052.0;-4.0;2.0;-2.0
815730;-2.0;13.0;2049.0;1.0;0.0;-6.0
815733;11.0;-1.0;2052.0;6.0;-1.0;-3.0
815737;6.0;4.0;2035.0;1.0;3.0;-2.0
815740;4.0;6.0;2040.0;-1.0;-2.0;-2.0
815744;-8.0;-5.0;2046.0;0.0;3.0;-1.0
815747;8.0;3.0;2047.0;0.0;1.0;-3.0
815751;2.0;6.0;2038.0;-4.0;-5.0;0.0
815754;16.0;-4.0;2041.0;-2.0;2.0;-3.0
815758;-2.0;1.0;2039.0;-3.0;0.0;-1.0
815761;-3.0;-5.0;2048.0;1.0;0.0;-1.0
815765;0.0;3.0;2039.0;-1.0;2.0;0.0
815768;-1.0;6.0;2051.0;3.0;0.0;-2.0
815772;9.0;-8.0;2037.0;1.0;1.0;2.0
815775;-9.0;2.0;2048.0;0.0;2.0;-5.0
815779;15.0;3.0;2054.0;-1.0;1.0;-2.0
815782;2.0;1.0;2044.0;-1.0;3.0;-3.0
815786;-2.0;-13.0;2047.0;-3.0;0.0;0.0
815789;-3.0;7.0;2039.0;-1.0;0.0;-2.0
815793;14.0;1.0;2045.0;-1.0;2.0;-3.0
815796;3.0;-2.0;2046.0;0.0;-2.0;-3.0
815800;11.0;7.0;2054.0;0.0;-1.0;-3.0
815803;2.0;11.0;2055.0;-1.0;3.0;1.0
815807;2.0;10.0;2039.0;-2.0;-2.0;-1.0
815810;3.0;5.0;2039.0;-1.0;2.0;4.0
815814;6.0;4.0;2041.0;-1.0;2.0;-1.0
815817;10.0;12.0;2055.0;-4.0;-2.0;-4.0
815821;0.0;-6.0;2038.0;-2.0;1.0;-5.0
815824;5.0;1.0;2045.0;1.0;1.0;0.0
815828;-3.0;5.0;2052.0;1.0;2.0;-6.0
815831;-2.0;12.0;2049.0;-1.0;-2.0;-2.0
815835;4.0;12.0;2055.0;-2.0;-1.0;1.0
815838;6.0;3.0;2045.0;1.0;1.0;-1.0
815842;-7.0;-1.0;2051.0;2.0;4.0;0.0
815845;0.0;1.0;2047.0;-1.0;1.0;1.0
815849;-13.0;9.0;2046.0;-1.0;1.0;0.0
815852;2.0;-1.0;2042.0;-5.0;2.0;-1.0
815856;13.0;6.0;2042.0;-4.0;2.0;-6.0
815859;8.0;11.0;2044.0;-1.0;0.0;-5.0
815863;-7.0;2.0;2037.0;-2.0;2.0;2.0
815866;4.0;-5.0;2046.0;2.0;-2.0;-1.0
815870;2.0;6.0;2045.0;2.0;3.0;-1.0
815873;2.0;1.0;2044.0;0.0;2.0;-2.0
815877;-7.0;1.0;2047.0;-1.0;2.0;-1.0
815880;12.0;5.0;2041.0;-3.0;2.0;1.0
815884;5.0;6.0;2043.0;-2.0;2.0;-6.0
815887;2.0;10.0;2045.0;1.0;4.0;4.0
815891;7.0;5.0;2043.0;-1.0;1.0;-3.0
815894;-1.0;2.0;2051.0;2.0;0.0;-1.0
815898;9.0;8.0;2036.0;3.0;3.0;0.0
815901;5.0;12.0;2044.0;-2.0;-1.0;-3.0
815905;-19.0;10.0;2052.0;-1.0;-2.0;-5.0
815908;-2.0;14.0;2041.0;0.0;1.0;-2.0
815912;6.0;4.0;2048.0;4.0;0.0;-1.0
815915;3.0;7.0;2046.0;-2.0;-3.0;2.0
815919;-6.0;12.0;2039.0;1.0;-1.0;-2.0
815922;-1.0;-7.0;2050.0;-3.0;3.0;1.0
815926;-5.0;9.0;2041.0;-2.0;1.0;-6.0
815929;4.0;7.0;2047.0;-2.0;0.0;-3.0
815933;6.0;8.0;2049.0;3.0;-1.0;-2.0
815936;6.0;3.0;2056.0;-3.0;1.0;-5.0
815940;4.0;0.0;2047.0;-2.0;1.0;2.0
815943;5.0;4.0;2048.0;5.0;0.0;0.0
815947;-4.0;5.0;2049.0;3.0;-2.0;-1.0
815950;0.0;0.0;2048.0;-3.0;2.0;-6.0
815954;5.0;-1.0;2040.0;-2.0;-1.0;0.0
815957;0.0;8.0;2044.0;-1.0;-2.0;-1.0
815961;8.0;11.0;2043.0;2.0;-1.0;-3.0
815964;-9.0;2.0;2038.0;0.0;2.0;0.0
815968;-7.0;2.0;2044.0;-1.0;0.0;-5.0
815971;-8.0;0.0;2044.0;-3.0;0.0;-1.0
815975;1.0;12.0;2050.0;2.0;0.0;0.0
815978;2.0;2.0;2040.0;-5.0;-4.0;-2.0
815982;-10.0;-6.0;2041.0;-1.0;1.0;-3.0
815985;6.0;8.0;2059.0;3.0;5.0;-3.0
815989;1.0;14.0;2044.0;1.0;3.0;0.0
815992;11.0;-1.0;2047.0;0.0;1.0;0.0
815996;-9.0;0.0;2042.0;-1.0;4.0;0.0
815999;-1.0;-7.0;2023.0;0.0;0.0;-4.0
816003;0.0;4.0;2036.0;-3.0;5.0;-1.0
816006;3.0;2.0;2046.0;-2.0;3.0;-5.0
816010;-11.0;3.0;2041.0;1.0;-5.0;-2.0
816013;3.0;-4.0;2036.0;0.0;2.0;-1.0
816017;2.0;8.0;2054.0;-3.0;1.0;-1.0
816020;1.0;-1.0;2053.0;-2.0;0.0;-1.0
816024;0.0;2.0;2049.0;-4.0;3.0;-3.0
816027;4.0;4.0;2052.0;4.0;4.0;-5.0
816031;2.0;3.0;2044.0;0.0;5.0;-4.0
816034;10.0;2.0;2046.0;-2.0;0.0;-3.0
816038;-1.0;-4.0;2044.0;-6.0;-3.0;1.0
816041;-4.0;7.0;2045.0;1.0;2.0;-3.0
816045;9.0;-5.0;2058.0;-1.0;-2.0;-2.0
816048;5.0;7.0;2048.0;-4.0;4.0;2.0
816052;4.0;3.0;2044.0;1.0;2.0;3.0
816055;-1.0;0.0;2043.0;3.0;0.0;-3.0
816059;3.0;-7.0;2047.0;0.0;-1.0;-1.0
816062;2.0;-9.0;2047.0;-4.0;2.0;0.0
816066;1.0;13.0;2043.0;-1.0;-1.0;-4.0
816069;1.0;3.0;2042.0;-2.0;3.0;-2.0
816073;2.0;8.0;2036.0;-2.0;2.0;1.0
816076;14.0;-6.0;2040.0;2.0;2.0;-1.0
816080;-10.0;0.0;2058.0;-10.0;0.0;1.0
816083;-10.0;9.0;2039.0;2.0;-2.0;-1.0
816087;-1.0;-8.0;2037.0;-5.0;2.0;-4.0
816090;6.0;3.0;2037.0;-3.0;1.0;-2.0
816094;4.0;-1.0;2047.0;-2.0;1.0;-4.0
816097;7.0;3.0;2054.0;-1.0;-1.0;-7.0
816101;6.0;9.0;2033.0;-7.0;5.0;-4.0
816104;-5.0;2.0;2052.0;2.0;-1.0;-2.0
816108;9.0;10.0;2042.0;3.0;-1.0;-3.0
816111;-5.0;1.0;2058.0;-1.0;-1.0;-5.0
816115;12.0;-2.0;2036.0;-3.0;2.0;-4.0
816118;10.0;-6.0;2046.0;0.0;2.0;-4.0
816122;-4.0;7.0;2046.0;-1.0;5.0;-3.0
816125;5.0;6.0;2048.0;1.0;-3.0;-5.0
816129;8.0;6.0;2041.0;-1.0;1.0;-4.0
816132;1.0;4.0;2038.0;0.0;0.0;-4.0
816136;-8.0;4.0;2042.0;1.0;4.0;-2.0
816139;6.0;12.0;2048.0;-4.0;-1.0;-4.0
816143;-4.0;0.0;2052.0;-1.0;0.0;1.0
816146;14.0;11.0;2046.0;-2.0;-1.0;-2.0
816150;6.0;2.0;2041.0;-1.0;0.0;0.0
816153;2.0;5.0;2051.0;-3.0;1.0;-2.0
816157;4.0;13.0;2039.0;-2.0;0.0;-1.0
816160;0.0;5.0;2043.0;0.0;2.0;1.0
816164;-8.0;18.0;2054.0;2.0;1.0;-4.0
816167;7.0;16.0;2049.0;-3.0;1.0;-4.0
816171;-11.0;3.0;2052.0;2.0;2.0;-1.0
816174;11.0;-3.0;2050.0;-1.0;0.0;-4.0
816178;3.0;18.0;2036.0;3.0;1.0;-1.0
816181;0.0;-1.0;2052.0;0.0;-1.0;-1.0
816185;-3.0;1.0;2044.0;-5.0;0.0;-3.0
816188;-2.0;8.0;2057.0;3.0;2.0;-1.0
816192;-1.0;14.0;2045.0;-3.0;-2.0;1.0
816195;-3.0;5.0;2059.0;-5.0;0.0;-2.0
816199;0.0;-2.0;2052.0;-2.0;3.0;0.0
816202;10.0;5.0;2043.0;3.0;0.0;-2.0
816206;4.0;-3.0;2046.0;2.0;0.0;-3.0
816209;2.0;16.0;2059.0;0.0;-1.0;-2.0
816213;0.0;2.0;2047.0;-3.0;1.0;0.0
816216;2.0;4.0;2035.0;0.0;1.0;-2.0
816220;-16.0;5.0;2040.0;-2.0;0.0;0.0
816223;-7.0;8.0;2053.0;2.0;-1.0;0.0
816227;-10.0;-4.0;2036.0;0.0;5.0;-4.0
816230;-1.0;-3.0;2039.0;-2.0;-1.0;0.0
816234;-1.0;1.0;2039.0;-2.0;2.0;-2.0
816237;-1.0;-4.0;2056.0;-1.0;0.0;-4.0
816241;-10.0;5.0;2039.0;-3.0;2.0;1.0
816244;-10.0;8.0;2045.0;-4.0;2.0;1.0
816248;7.0;3.0;2040.0;-1.0;2.0;-3.0
816251;1.0;6.0;2035.0;0.0;-3.0;1.0
816255;2.0;-4.0;2049.0;-3.0;-1.0;-1.0
816258;-4.0;1.0;2037.0;5.0;3.0;-4.0
816262;-3.0;6.0;2058.0;-4.0;-4.0;-2.0
816265;1.0;7.0;2049.0;2.0;2.0;0.0
816269;12.0;5.0;2047.0;-4.0;4.0;-3.0
816272;-5.0;0.0;2035.0;-4.0;-1.0;-2.0
816276;-2.0;1.0;2048.0;2.0;-1.0;-1.0
816279;6.0;3.0;2055.0;2.0;2.0;2.0
816283;-4.0;-1.0;2047.0;0.0;1.0;-4.0
816286;1.0;11.0;2040.0;-3.0;0.0;-2.0
816290;0.0;5.0;2030.0;3.0;0.0;-1.0
816293;-2.0;10.0;2044.0;-1.0;3.0;-1.0
816297;9.0;-1.0;2056.0;-2.0;2.0;1.0
816300;3.0;-1.0;2044.0;3.0;-2.0;-2.0
816304;2.0;10.0;2046.0;1.0;0.0;-2.0
816307;-3.0;-3.0;2047.0;-2.0;3.0;-1.0
816311;9.0;-9.0;2050.0;0.0;-1.0;-2.0
816314;-2.0;9.0;2047.0;3.0;2.0;-1.0
816318;3.0;11.0;2041.0;-2.0;2.0;-6.0
816321;12.0;12.0;2048.0;1.0;4.0;-1.0
816325;-5.0;-4.0;2044.0;-4.0;2.0;4.0
816328;8.0;5.0;2051.0;-4.0;4.0;-4.0
816332;0.0;-5.0;2043.0;-1.0;2.0;3.0
816335;-1.0;8.0;2054.0;1.0;0.0;1.0
816339;3.0;-2.0;2036.0;1.0;0.0;-2.0
816342;-3.0;2.0;2048.0;2.0;0.0;-2.0
816346;11.0;3.0;2040.0;-3.0;0.0;-3.0
816349;9.0;13.0;2045.0;-3.0;2.0;0.0
816353;4.0;7.0;2047.0;3.0;2.0;-1.0
816356;0.0;3.0;2041.0;-1.0;0.0;0.0
816360;-1.0;-4.0;2036.0;-2.0;2.0;2.0
816363;7.0;0.0;2044.0;3.0;-3.0;-4.0
816367;-3.0;5.0;2041.0;-1.0;3.0;0.0
816370;-4.0;-3.0;2040.0;-6.0;1.0;-2.0
816374;-2.0;5.0;2041.0;-2.0;1.0;0.0
816377;9.0;9.0;2045.0;3.0;3.0;-4.0
816381;-2.0;7.0;2036.0;0.0;0.0;-3.0
816384;-9.0;2.0;2037.0;0.0;-2.0;-1.0
816388;8.0;1.0;2050.0;-1.0;6.0;1.0
816391;3.0;6.0;2044.0;1.0;-1.0;-2.0
816395;-4.0;6.0;2039.0;-1.0;5.0;-6.0
816398;-2.0;4.0;2032.0;-1.0;2.0;-2.0
816402;-1.0;-10.0;2040.0;-6.0;2.0;-4.0
816405;6.0;-3.0;2048.0;2.0;1.0;1.0
816409;5.0;3.0;2039.0;-1.0;2.0;1.0
816412;-7.0;3.0;2055.0;1.0;2.0;-1.0
816416;-5.0;1.0;2053.0;-5.0;3.0;3.0
816419;1.0;3.0;2043.0;-4.0;-1.0;-1.0
816423;-3.0;-8.0;2047.0;0.0;-2.0;-1.0
816426;10.0;6.0;2041.0;3.0;-1.0;-1.0
816430;2.0;1.0;2042.0;1.0;-1.0;-2.0
816433;12.0;12.0;2048.0;-1.0;1.0;-2.0
816437;-8.0;2.0;2030.0;-4.0;0.0;-3.0
816440;-13.0;3.0;2036.0;-1.0;-1.0;0.0
816444;15.0;13.0;2038.0;0.0;3.0;-4.0
816447;-7.0;5.0;2047.0;1.0;0.0;0.0
816451;10.0;-2.0;2041.0;4.0;0.0;-1.0
816454;4.0;10.0;2043.0;0.0;1.0;-1.0
816458;-4.0;15.0;2051.0;-1.0;4.0;-3.0
816461;-5.0;9.0;2040.0;-3.0;0.0;-4.0
816465;9.0;-3.0;2041.0;2.0;1.0;-4.0
816468;0.0;-3.0;2050.0;-2.0;1.0;-1.0
816472;5.0;-6.0;2056.0;0.0;-1.0;-3.0
816475;8.0;-2.0;2050.0;-4.0;2.0;1.0
816479;2.0;4.0;2038.0;0.0;3.0;0.0
816482;-3.0;3.0;2052.0;0.0;0.0;-4.0
816486;3.0;0.0;2036.0;-2.0;-3.0;-2.0
816489;-2.0;7.0;2047.0;1.0;1.0;-4.0
816493;5.0;8.0;2051.0;6.0;5.0;2.0
816496;3.0;-2.0;2038.0;-5.0;1.0;-3.0
816500;-3.0;6.0;2049.0;-1.0;-1.0;-3.0
816503;-4.0;9.0;2057.0;-2.0;0.0;-6.0
816507;3.0;9.0;2051.0;-3.0;3.0;-4.0
816510;-8.0;3.0;2042.0;-3.0;1.0;-2.0
816514;5.0;7.0;2040.0;-3.0;1.0;0.0
816517;8.0;12.0;2039.0;3.0;0.0;-1.0
816521;6.0;-2.0;2040.0;-1.0;4.0;1.0
816524;-4.0;-4.0;2049.0;-4.0;1.0;-2.0
816528;-2.0;9.0;2045.0;0.0;-2.0;1.0
816531;8.0;-5.0;2042.0;-2.0;-1.0;0.0
816535;4.0;1.0;2045.0;1.0;-5.0;0.0
816538;5.0;4.0;2041.0;1.0;5.0;-3.0
816542;8.0;-4.0;2053.0;0.0;0.0;0.0
816545;-5.0;12.0;2047.0;-1.0;0.0;0.0
816549;-5.0;10.0;2040.0;0.0;0.0;0.0
816552;-4.0;3.0;2049.0;-2.0;-1.0;-4.0
816556;10.0;7.0;2039.0;-1.0;1.0;-3.0
816559;5.0;-8.0;2051.0;-2.0;0.0;5.0
816563;-2.0;11.0;2044.0;1.0;3.0;1.0
816566;-1.0;0.0;2043.0;0.0;2.0;2.0
816570;10.0;10.0;2051.0;-3.0;2.0;0.0
816573;-13.0;0.0;2038.0;0.0;2.0;-2.0
816577;-3.0;5.0;2044.0;-7.0;-2.0;-2.0
816580;8.0;-5.0;2038.0;-4.0;1.0;0.0
816584;-8.0;7.0;2046.0;-1.0;-3.0;4.0
816587;4.0;2.0;2050.0;-4.0;0.0;-1.0
816591;7.0;5.0;2045.0;-5.0;1.0;-3.0
816594;6.0;7.0;2055.0;-1.0;2.0;-3.0
816598;3.0;4.0;2053.0;1.0;-1.0;-4.0
816601;2.0;4.0;2043.0;1.0;0.0;-3.0
816605;8.0;4.0;2045.0;-4.0;0.0;-3.0
816608;-3.0;-6.0;2048.0;2.0;3.0;-4.0
816612;-1.0;-1.0;2058.0;-1.0;0.0;-2.0
816615;6.0;3.0;2047.0;-3.0;1.0;1.0
816619;-11.0;1.0;2047.0;-3.0;1.0;-5.0
816622;-6.0;2.0;2049.0;-2.0;2.0;-1.0
816626;-7.0;-6.0;2050.0;1.0;3.0;-4.0
816629;7.0;3.0;2046.0;-3.0;0.0;2.0
816633;-5.0;-14.0;2048.0;-1.0;-1.0;0.0
816636;6.0;6.0;2049.0;-1.0;5.0;-5.0
816640;11.0;1.0;2041.0;-2.0;3.0;-1.0
816643;5.0;17.0;2044.0;2.0;6.0;3.0
816647;15.0;11.0;2054.0;-3.0;2.0;-4.0
816650;2.0;5.0;2054.0;-1.0;0.0;-2.0
816654;2.0;7.0;2056.0;-6.0;3.0;-1.0
816657;8.0;0.0;2045.0;0.0;1.0;-3.0
816661;-6.0;4.0;2040.0;-6.0;0.0;-2.0
816664;2.0;5.0;2048.0;-4.0;2.0;-4.0
816668;-1.0;10.0;2038.0;1.0;1.0;2.0
816671;1.0;4.0;2052.0;-1.0;3.0;-2.0
816675;-6.0;-1.0;2047.0;1.0;0.0;-3.0
816678;2.0;-1.0;2046.0;-7.0;3.0;-5.0
816682;1.0;-9.0;2051.0;2.0;3.0;-3.0
816685;-8.0;1.0;2044.0;1.0;3.0;-4.0
816689;7.0;4.0;2047.0;1.0;-1.0;-1.0
816692;1.0;0.0;2044.0;-4.0;0.0;-3.0
816696;11.0;10.0;2046.0;0.0;-1.0;-5.0
816699;0.0;-2.0;2034.0;-4.0;3.0;0.0
816703;11.0;19.0;2048.0;-1.0;1.0;1.0
816706;-7.0;5.0;2039.0;-1.0;2.0;-4.0
816710;7.0;14.0;2048.0;2.0;-2.0;0.0
816713;4.0;-2.0;2051.0;-3.0;0.0;-2.0
816717;-5.0;8.0;2044.0;-4.0;0.0;2.0
816720;-3.0;12.0;2049.0;1.0;-2.0;-4.0
816724;3.0;1.0;2051.0;-3.0;5.0;-5.0
816727;9.0;10.0;2049.0;2.0;1.0;0.0
816731;10.0;3.0;2043.0;-4.0;1.0;-6.0
816734;-9.0;0.0;2051.0;3.0;-2.0;0.0
816738;-4.0;2.0;2050.0;-1.0;-1.0;-2.0
816741;11.0;4.0;2043.0;-2.0;-1.0;-5.0
816745;-1.0;-8.0;2043.0;2.0;4.0;-5.0
816748;6.0;5.0;2041.0;2.0;0.0;-2.0
816752;-3.0;-3.0;2051.0;-5.0;-3.0;-3.0
816755;9.0;1.0;2043.0;-4.0;3.0;-3.0
816759;1.0;11.0;2047.0;0.0;3.0;0.0
816762;8.0;0.0;2044.0;0.0;3.0;1.0
816766;2.0;16.0;2046.0;-2.0;0.0;-1.0
816769;5.0;5.0;2031.0;0.0;-1.0;2.0
816773;-3.0;-1.0;2039.0;-1.0;3.0;-1.0
816776;-5.0;-5.0;2043.0;4.0;-2.0;-1.0
816780;3.0;-6.0;2046.0;3.0;4.0;2.0
816783;7.0;11.0;2046.0;4.0;-3.0;3.0
816787;1.0;-2.0;2049.0;1.0;4.0;-1.0
816790;-1.0;0.0;2048.0;-6.0;-3.0;-6.0
816794;11.0;-2.0;2055.0;1.0;4.0;2.0
816797;-6.0;5.0;2052.0;-1.0;0.0;1.0
816801;7.0;7.0;2038.0;-1.0;2.0;-3.0
816804;10.0;2.0;2040.0;-1.0;0.0;-3.0
816808;-3.0;8.0;2038.0;-2.0;-3.0;-1.0
816811;-3.0;1.0;2051.0;-1.0;-1.0;0.0
816815;-5.0;1.0;2043.0;2.0;0.0;-2.0
816818;1.0;-3.0;2050.0;-3.0;0.0;-2.0
816822;8.0;0.0;2045.0;-1.0;0.0;0.0
816825;5.0;8.0;2037.0;-4.0;2.0;0.0
816829;0.0;7.0;2052.0;2.0;-1.0;-2.0
816832;8.0;-3.0;2044.0;-1.0;3.0;-3.0
816836;2.0;10.0;2044.0;-1.0;-5.0;1.0
816839;-8.0;15.0;2048.0;-1.0;3.0;-2.0
816843;4.0;8.0;2047.0;-1.0;1.0;-5.0
816846;5.0;3.0;2049.0;2.0;-1.0;-4.0
816850;8.0;10.0;2045.0;-1.0;1.0;-4.0
816853;0.0;4.0;2037.0;0.0;-2.0;-3.0
816857;-4.0;0.0;2039.0;3.0;0.0;-2.0
816860;6.0;3.0;2045.0;0.0;-2.0;-1.0
816864;2.0;10.0;2045.0;-3.0;-1.0;-1.0
816867;-10.0;10.0;2041.0;-1.0;5.0;-1.0
816871;3.0;2.0;2044.0;-4.0;1.0;0.0
816874;0.0;-3.0;2044.0;2.0;1.0;2.0
816878;-2.0;9.0;2037.0;0.0;1.0;1.0
816881;-10.0;0.0;2047.0;-2.0;2.0;-1.0
816885;5.0;0.0;2044.0;-3.0;0.0;-1.0
816888;-2.0;17.0;2046.0;4.0;2.0;-2.0
816892;-6.0;1.0;2037.0;-2.0;3.0;-3.0
816895;-3.0;4.0;2047.0;3.0;0.0;0.0
816899;1.0;9.0;2056.0;0.0;3.0;-1.0
816902;18.0;15.0;2044.0;0.0;3.0;1.0
816906;1.0;-4.0;2052.0;-7.0;3.0;-6.0
816909;3.0;-3.0;2052.0;0.0;-1.0;-7.0
816913;-3.0;6.0;2045.0;-3.0;0.0;2.0
816916;-9.0;-2.0;2057.0;-1.0;-1.0;-3.0
816920;-2.0;0.0;2049.0;-3.0;-3.0;1.0
816923;1.0;-3.0;2043.0;-3.0;-3.0;0.0
816927;-3.0;2.0;2044.0;-1.0;-1.0;0.0
816930;-2.0;6.0;2037.0;-8.0;3.0;0.0
816934;-1.0;-3.0;2044.0;-5.0;-2.0;-1.0
816937;-4.0;6.0;2045.0;-3.0;2.0;-2.0
816941;-2.0;6.0;2051.0;-1.0;2.0;-2.0
816944;-5.0;5.0;2037.0;4.0;-1.0;-3.0
816948;7.0;0.0;2048.0;-1.0;0.0;-1.0
816951;-7.0;6.0;2047.0;-1.0;-1.0;-1.0
816955;-12.0;12.0;2054.0;-7.0;0.0;-1.0
816958;8.0;-7.0;2043.0;3.0;0.0;-2.0
816962;8.0;-5.0;2049.0;-1.0;1.0;-3.0
816965;-12.0;14.0;2035.0;0.0;-1.0;1.0
816969;7.0;-4.0;2050.0;1.0;-1.0;0.0
816972;0.0;-5.0;2045.0;4.0;2.0;-1.0
816976;5.0;-4.0;2055.0;-7.0;-2.0;-4.0
816979;-5.0;6.0;2038.0;-1.0;4.0;0.0
816983;-3.0;-4.0;2058.0;-1.0;1.0;-4.0
816986;6.0;-1.0;2058.0;2.0;0.0;1.0
816990;-1.0;6.0;2043.0;-2.0;0.0;-2.0
816993;-5.0;3.0;2057.0;-3.0;-1.0;-1.0
816997;-8.0;-4.0;2047.0;-2.0;1.0;0.0
817000;4.0;-4.0;2058.0;3.0;0.0;-2.0
817004;-1.0;3.0;2050.0;-1.0;3.0;-1.0
817007;-1.0;5.0;2053.0;3.0;1.0;-1.0
817011;-1.0;-3.0;2049.0;-1.0;-3.0;-3.0
817014;-6.0;-4.0;2041.0;-3.0;2.0;-4.0
817018;4.0;5.0;2058.0;-1.0;3.0;-1.0
817021;1.0;4.0;2029.0;0.0;3.0;2.0
817025;-4.0;-3.0;2038.0;-3.0;-3.0;-2.0
817028;3.0;-3.0;2038.0;-2.0;2.0;-1.0
817032;-8.0;-1.0;2044.0;1.0;1.0;-3.0
817035;-5.0;5.0;2045.0;0.0;2.0;0.0
817039;-1.0;18.0;2050.0;3.0;4.0;1.0
817042;-7.0;-6.0;2046.0;-1.0;-1.0;0.0
817046;1.0;-5.0;2058.0;-1.0;0.0;0.0
817049;-5.0;2.0;2049.0;1.0;0.0;0.0
817053;3.0;10.0;2051.0;0.0;6.0;-2.0
817056;6.0;16.0;2049.0;-1.0;3.0;-1.0
817060;9.0;3.0;2052.0;-4.0;1.0;-1.0
817063;12.0;13.0;2047.0;-1.0;1.0;0.0
817067;2.0;14.0;2036.0;2.0;0.0;-4.0
817070;7.0;4.0;2046.0;-1.0;0.0;-5.0
817074;-3.0;-10.0;2039.0;-3.0;-3.0;3.0
817077;3.0;-2.0;2040.0;-2.0;1.0;-3.0
817081;-3.0;10.0;2042.0;-1.0;0.0;-9.0
817084;-5.0;9.0;2038.0;2.0;-2.0;-3.0
817088;-9.0;2.0;2042.0;-5.0;3.0;-2.0
817091;-14.0;14.0;2040.0;-4.0;1.0;-6.0
817095;2.0;0.0;2050.0;-1.0;-1.0;-2.0
817098;3.0;-1.0;2044.0;0.0;0.0;1.0
817102;-3.0;0.0;2038.0;0.0;1.0;0.0
817105;0.0;0.0;2052.0;2.0;4.0;-3.0
817109;-2.0;11.0;2035.0;1.0;-3.0;0.0
817112;-5.0;-4.0;2044.0;-3.0;3.0;-5.0
817116;-18.0;5.0;2036.0;1.0;2.0;0.0
817119;-5.0;12.0;2046.0;1.0;3.0;1.0
817123;5.0;-4.0;2048.0;-1.0;-1.0;-5.0
817126;4.0;4.0;2030.0;2.0;-2.0;-2.0
817130;7.0;-4.0;2039.0;-1.0;2.0;0.0
817133;-10.0;-8.0;2037.0;0.0;-1.0;-1.0
817137;6.0;13.0;2040.0;-1.0;3.0;-1.0
817140;-7.0;7.0;2045.0;-4.0;1.0;-2.0
817144;-8.0;-5.0;2041.0;-3.0;5.0;-2.0
817147;5.0;1.0;2053.0;1.0;1.0;0.0
817151;6.0;1.0;2053.0;-3.0;0.0;1.0
817154;-7.0;4.0;2047.0;4.0;0.0;2.0
817158;0.0;7.0;2048.0;1.0;-1.0;-4.0
817161;-2.0;3.0;2041.0;3.0;-4.0;-1.0
817165;5.0;5.0;2048.0;0.0;4.0;-1.0
817168;4.0;1.0;2040.0;3.0;1.0;1.0
817172;-1.0;-4.0;2037.0;-2.0;2.0;0.0
817175;-10.0;4.0;2046.0;0.0;0.0;-2.0
817179;-1.0;-3.0;2047.0;-1.0;4.0;-1.0
817182;7.0;1.0;2037.0;-1.0;2.0;1.0
817186;-8.0;15.0;2044.0;0.0;1.0;0.0
817189;10.0;8.0;2046.0;-1.0;-2.0;-1.0
817193;13.0;15.0;2050.0;-1.0;0.0;-4.0
817196;0.0;14.0;2046.0;-2.0;5.0;-4.0
817200;5.0;5.0;2040.0;1.0;0.0;-1.0
817203;3.0;2.0;2039.0;-2.0;-2.0;0.0
817207;4.0;2.0;2046.0;-3.0;1.0;-6.0
817210;3.0;1.0;2042.0;-3.0;1.0;-5.0
817214;5.0;6.0;2044.0;-3.0;0.0;0.0
817217;6.0;5.0;2052.0;0.0;1.0;-2.0
817221;-2.0;5.0;2046.0;-1.0;2.0;-3.0
817224;0.0;9.0;2056.0;2.0;4.0;-1.0
817228;3.0;9.0;2050.0;0.0;2.0;0.0
817231;-1.0;9.0;2045.0;0.0;3.0;-1.0
817235;-7.0;0.0;2055.0;-2.0;0.0;3.0
817238;3.0;-3.0;2042.0;-3.0;0.0;0.0
817242;-3.0;6.0;2044.0;-3.0;2.0;-4.0
817529;10.0;-1.0;2045.0;1.0;4.0;2.0
817532;-4.0;4.0;2037.0;-1.0;1.0;-6.0
817536;0.0;-2.0;2039.0;-1.0;4.0;0.0
817539;-9.0;-3.0;2025.0;-1.0;2.0;-2.0
817543;6.0;-4.0;2044.0;0.0;2.0;1.0
817546;-6.0;5.0;2042.0;-1.0;2.0;-3.0
817550;13.0;1.0;2038.0;0.0;2.0;-4.0
817553;-6.0;-1.0;2044.0;-4.0;4.0;-3.0
817557;0.0;-11.0;2039.0;-4.0;5.0;-1.0
817560;7.0;3.0;2054.0;-2.0;3.0;-2.0
817564;-6.0;-2.0;2040.0;-3.0;1.0;-2.0
817567;-11.0;7.0;2033.0;2.0;-2.0;-2.0
817571;1.0;1.0;2030.0;-3.0;1.0;-5.0
817574;3.0;-1.0;2043.0;0.0;2.0;-4.0
817578;0.0;0.0;2047.0;-1.0;-1.0;1.0
817581;8.0;10.0;2033.0;-9.0;1.0;-4.0
817585;2.0;6.0;2049.0;1.0;1.0;-2.0
817588;0.0;-2.0;2044.0;0.0;0.0;2.0
817592;-2.0;7.0;2047.0;-2.0;-1.0;-2.0
